Timestamp (ms),Accel X,Accel Y,Accel Z
544415,0.53,0.18,-0.86
544436,0.53,0.19,-0.86
544457,0.54,0.18,-0.86
544478,0.52,0.18,-0.87
544499,0.5,0.17,-0.88
544520,0.5,0.17,-0.87
544541,0.48,0.2,-0.85
544562,0.29,0.24,-0.85
544583,0.39,0.26,-0.83
544604,0.63,0.2,-0.81
544625,0.63,0.15,-0.8
544646,0.53,0.16,-0.86
544667,0.52,0.16,-0.88
544688,0.57,0.15,-0.89
544709,0.51,0.16,-0.89
544730,0.47,0.18,-0.88
544751,0.56,0.16,-0.88
544772,0.53,0.14,-0.9
544793,0.43,0.17,-0.89
544814,0.54,0.14,-0.88
544835,0.67,0.07,-0.9
544856,0.26,0.16,-0.9
544877,0.54,0.17,-0.91
544898,0.73,0.1,-0.94
544919,0.59,0.06,-0.92
544940,0.27,0.15,-0.84
544961,0.2,0.26,-0.8
544982,0.61,0.16,-0.72
545003,0.87,0.03,-0.73
545024,0.61,0.09,-0.88
545045,0.67,0.13,-0.89
545066,0.41,0.17,-0.85
545087,0.58,0.18,-0.83
545108,0.76,0.09,-0.83
545129,0.38,0.15,-0.9
545150,0.45,0.18,-0.89
545171,0.62,0.14,-0.84
545192,0.77,0.13,-0.84
545213,0.43,0.12,-0.86
545234,0.26,0.18,-0.84
545255,0.35,0.24,-0.82
545276,0.92,0.09,-0.78
545297,0.95,0.05,-0.86
545318,0.28,0.03,-0.91
545339,-0.06,0.29,-0.88
545360,0.87,0.24,-0.79
545381,1.34,0.03,-0.75
545402,0.54,-0.01,-0.9
545423,-0.23,0.2,-0.97
545444,0.85,0.24,-0.88
545465,1.17,-0.0,-0.79
545486,0.28,0.05,-0.9
545507,0.12,0.2,-0.95
545528,0.6,0.13,-0.86
545549,0.99,0.0,-0.83
545570,0.33,0.02,-0.86
545591,0.09,0.19,-0.87
545612,0.68,0.2,-0.83
545633,1.01,-0.01,-0.84
545654,0.42,0.01,-0.94
545675,0.34,0.14,-0.92
545696,0.48,0.19,-0.85
545717,0.81,0.12,-0.84
545738,0.74,0.0,-0.87
545759,0.36,0.08,-0.97
545780,0.17,0.17,-0.91
545801,0.58,0.18,-0.85
545822,0.93,-0.0,-0.86
545843,0.39,-0.05,-0.96
545864,0.32,0.12,-0.94
545885,0.44,0.16,-0.81
545906,0.77,0.09,-0.79
545927,0.7,0.01,-0.81
545948,0.34,0.05,-0.96
545969,0.12,0.15,-0.91
545990,0.59,0.13,-0.84
546011,0.61,0.06,-0.87
546032,0.39,0.1,-0.91
546053,0.61,0.13,-0.91
546074,0.61,0.08,-0.91
546095,0.61,0.08,-0.91
546116,0.45,0.12,-0.87
546137,0.36,0.2,-0.84
546158,0.47,0.17,-0.86
546179,0.57,0.06,-0.9
546200,0.49,0.04,-0.94
546221,0.37,0.11,-0.92
546242,0.58,0.12,-0.87
546263,0.65,0.09,-0.85
546284,0.51,0.1,-0.89
546305,0.52,0.11,-0.89
546326,0.54,0.11,-0.88
546347,0.52,0.09,-0.89
546368,0.46,0.1,-0.89
546389,0.47,0.12,-0.9
546410,0.53,0.1,-0.9
546431,0.54,0.08,-0.9
546452,0.54,0.07,-0.91
546473,0.56,0.1,-0.9
546494,0.57,0.14,-0.87
546515,0.47,0.12,-0.87
546536,0.42,0.12,-0.89
546557,0.48,0.11,-0.92
546578,0.49,0.13,-0.91
546599,0.51,0.14,-0.89
546620,0.49,0.14,-0.9
546641,0.48,0.12,-0.91
546662,0.45,0.12,-0.92
546683,0.4,0.14,-0.92
546704,0.38,0.12,-0.93
546725,0.41,0.1,-0.93
546746,0.46,0.11,-0.92
546767,0.47,0.12,-0.9
546788,0.46,0.12,-0.9
546809,0.45,0.11,-0.91
546830,0.51,0.11,-0.91
546851,0.43,0.11,-0.9
546872,0.44,0.14,-0.88
546893,0.54,0.12,-0.9
546914,0.29,0.12,-0.92
546935,0.13,0.23,-0.89
546956,0.69,0.17,-0.85
546977,0.71,0.06,-0.88
546998,0.5,0.05,-0.9
547019,0.67,0.07,-0.9
547040,0.64,0.04,-0.9
547061,0.61,0.04,-0.9
547082,0.51,0.07,-0.88
547103,0.49,0.11,-0.85
547124,0.56,0.08,-0.82
547145,0.66,0.04,-0.83
547166,0.51,0.01,-0.88
547187,0.26,0.16,-0.9
547208,0.69,0.11,-0.9
547229,0.81,0.02,-0.88
547250,0.21,0.04,-0.9
547271,0.31,0.26,-0.88
547292,0.85,0.1,-0.83
547313,1.09,-0.07,-0.85
547334,0.43,-0.03,-0.91
547355,0.06,0.18,-0.94
547376,0.25,0.25,-0.8
547397,0.64,0.16,-0.76
547418,0.88,-0.0,-0.8
547439,0.37,0.0,-0.91
547460,0.1,0.15,-0.94
547481,0.83,0.12,-0.87
547502,0.85,-0.05,-0.86
547523,0.42,0.07,-0.92
547544,0.49,0.18,-0.91
547565,0.66,0.1,-0.85
547586,0.74,0.03,-0.85
547607,0.57,0.09,-0.93
547628,0.14,0.2,-0.97
547649,0.51,0.21,-0.87
547670,0.75,0.1,-0.79
547691,0.64,0.03,-0.82
547712,0.47,0.03,-0.87
547733,0.42,0.04,-0.9
547754,0.64,-0.01,-0.85
547775,0.85,-0.05,-0.83
547796,0.03,0.05,-0.87
547817,0.14,0.24,-0.86
547838,1.27,0.02,-0.79
547859,0.86,-0.12,-0.85
547880,-0.51,0.24,-0.99
547901,0.6,0.3,-0.9
547922,1.34,-0.02,-0.81
547943,0.82,-0.13,-0.91
547964,0.03,0.04,-0.97
547985,0.3,0.17,-0.88
548006,0.42,0.18,-0.8
548027,0.54,0.1,-0.81
548048,0.47,0.04,-0.86
548069,0.4,0.06,-0.9
548090,0.56,0.07,-0.9
548111,0.61,0.01,-0.9
548132,0.51,0.07,-0.9
548153,0.69,0.15,-0.88
548174,0.73,0.04,-0.86
548195,0.69,0.06,-0.9
548216,0.55,0.08,-0.92
548237,0.43,0.12,-0.89
548258,0.48,0.12,-0.85
548279,0.48,0.1,-0.84
548300,0.46,0.1,-0.85
548321,0.55,0.1,-0.89
548342,0.56,0.08,-0.9
548363,0.49,0.11,-0.91
548384,0.48,0.09,-0.89
548405,0.63,0.09,-0.89
548426,0.56,0.1,-0.9
548447,0.53,0.11,-0.9
548468,0.54,0.11,-0.91
548489,0.53,0.12,-0.91
548510,0.48,0.11,-0.91
548531,0.4,0.1,-0.9
548552,0.39,0.1,-0.89
548573,0.39,0.11,-0.89
548594,0.45,0.1,-0.88
548615,0.46,0.09,-0.88
548636,0.46,0.09,-0.91
548657,0.46,0.08,-0.92
548678,0.48,0.09,-0.93
548699,0.45,0.09,-0.92
548720,0.44,0.09,-0.92
548741,0.42,0.1,-0.93
548762,0.45,0.09,-0.92
548783,0.46,0.09,-0.91
548804,0.46,0.1,-0.92
548825,0.42,0.1,-0.93
548846,0.41,0.09,-0.93
548867,0.44,0.08,-0.92
548888,0.44,0.08,-0.91
548909,0.42,0.1,-0.93
548930,0.39,0.11,-0.94
548951,0.43,0.09,-0.92
548972,0.47,0.08,-0.93
548993,0.46,0.08,-0.92
549014,0.49,0.12,-0.95
549035,0.43,0.13,-0.97
549056,0.34,0.11,-0.95
549077,0.4,0.1,-0.88
549098,0.52,0.11,-0.86
549119,0.47,0.13,-0.9
549140,0.46,0.09,-0.92
549161,0.5,0.07,-0.93
549182,0.5,0.08,-0.92
549203,0.52,0.09,-0.91
549224,0.48,0.09,-0.9
549245,0.46,0.09,-0.93
549266,0.47,0.12,-0.95
549287,0.48,0.13,-0.96
549308,0.47,0.11,-0.95
549329,0.44,0.1,-0.96
549350,0.5,0.08,-0.96
549371,0.48,0.09,-0.94
549392,0.47,0.09,-0.92
549413,0.35,0.11,-0.88
549434,0.28,0.11,-0.87
549455,0.54,0.1,-0.86
549476,0.68,0.08,-0.91
549497,0.37,0.1,-0.94
549518,0.28,0.13,-0.94
549539,0.45,0.14,-0.9
549560,0.54,0.09,-0.88
549581,0.38,0.1,-0.95
549602,0.36,0.12,-0.96
549623,0.46,0.12,-0.94
549644,0.56,0.1,-0.91
549665,0.58,0.09,-0.89
549686,0.26,0.13,-0.91
549707,0.37,0.15,-0.89
549728,0.7,0.1,-0.9
549749,0.58,0.04,-0.91
549770,0.24,0.12,-0.93
549791,0.56,0.12,-0.92
549812,0.61,0.06,-0.91
549833,0.51,0.07,-0.94
549854,0.36,0.1,-0.92
549875,0.45,0.12,-0.92
549896,0.33,0.13,-0.92
549917,0.29,0.14,-0.9
549938,0.49,0.1,-0.9
549959,0.62,0.05,-0.92
549980,0.21,0.12,-0.93
550001,0.49,0.16,-0.9
550022,0.77,0.08,-0.88
550043,0.65,0.04,-0.93
550064,0.52,0.08,-0.94
550085,0.29,0.12,-0.92
550106,0.26,0.19,-0.92
550127,0.42,0.15,-0.92
550148,0.54,0.07,-0.96
550169,0.41,0.07,-0.98
550190,0.36,0.09,-0.96
550211,0.38,0.12,-0.9
550232,0.55,0.11,-0.89
550253,0.49,0.09,-0.93
550274,0.19,0.12,-0.95
550295,0.29,0.17,-0.94
550316,0.61,0.09,-0.92
550337,0.62,0.04,-0.95
550358,0.33,0.07,-0.97
550379,0.31,0.15,-0.93
550400,0.42,0.17,-0.9
550421,0.53,0.12,-0.91
550442,0.47,0.05,-0.92
550463,0.3,0.1,-0.94
550484,0.42,0.12,-0.95
550505,0.55,0.09,-0.94
550526,0.48,0.05,-0.95
550547,0.43,0.06,-0.95
550568,0.44,0.11,-0.92
550589,0.47,0.14,-0.9
550610,0.46,0.11,-0.92
550631,0.41,0.09,-0.94
550652,0.4,0.09,-0.96
550673,0.43,0.09,-0.96
550694,0.42,0.1,-0.95
550715,0.39,0.11,-0.96
550736,0.4,0.1,-0.95
550757,0.42,0.1,-0.94
550778,0.35,0.1,-0.92
550799,0.24,0.15,-0.91
550820,0.37,0.13,-0.93
550841,0.54,0.08,-0.93
550862,0.56,0.04,-0.95
550883,0.47,0.06,-0.95
550904,0.42,0.11,-0.93
550925,0.44,0.12,-0.92
550946,0.41,0.11,-0.92
550967,0.4,0.1,-0.93
550988,0.41,0.11,-0.93
551009,0.44,0.09,-0.92
551030,0.42,0.1,-0.91
551051,0.42,0.08,-0.91
551072,0.44,0.06,-0.91
551093,0.31,0.08,-0.93
551114,0.38,0.08,-0.92
551135,0.59,0.06,-0.91
551156,0.6,0.06,-0.94
551177,0.25,0.1,-0.96
551198,0.43,0.1,-0.96
551219,0.65,0.06,-0.95
551240,0.5,0.08,-0.98
551261,0.37,0.08,-0.96
551282,0.34,0.1,-0.93
551303,0.46,0.12,-0.91
551324,0.65,0.08,-0.89
551345,0.49,0.07,-0.91
551366,0.06,0.16,-0.93
551387,0.45,0.17,-0.95
551408,1.04,-0.02,-0.97
551429,0.54,0.04,-0.93
551450,-0.03,0.11,-0.91
551471,0.06,0.2,-0.93
551492,0.36,0.18,-0.93
551513,0.49,0.07,-0.96
551534,0.4,0.03,-0.98
551555,0.25,0.06,-1.0
551576,0.33,0.1,-0.98
551597,0.38,0.14,-0.95
551618,0.4,0.14,-0.95
551639,0.32,0.12,-0.96
551660,0.32,0.12,-0.97
551681,0.34,0.13,-0.98
551702,0.41,0.1,-0.97
551723,0.45,0.08,-0.97
551744,0.41,0.08,-0.97
551765,0.28,0.1,-0.95
551786,0.38,0.14,-0.93
551807,0.48,0.09,-0.94
551828,0.44,0.08,-0.94
551849,0.37,0.08,-0.95
551870,0.36,0.09,-0.94
551891,0.42,0.11,-0.94
551912,0.45,0.09,-0.95
551933,0.48,0.06,-0.95
551954,0.42,0.08,-0.96
551975,0.38,0.11,-0.96
551996,0.44,0.12,-0.97
552017,0.43,0.09,-0.96
552038,0.43,0.09,-0.95
552059,0.24,0.13,-0.96
552080,0.22,0.15,-0.95
552101,0.35,0.13,-0.92
552122,0.39,0.12,-0.93
552143,0.42,0.12,-0.95
552164,0.47,0.1,-0.96
552185,0.44,0.09,-0.97
552206,0.71,0.07,-0.99
552227,0.67,0.05,-0.98
552248,0.2,0.1,-0.96
552269,0.1,0.17,-0.93
552290,0.29,0.21,-0.89
552311,0.27,0.13,-0.92
552332,0.37,0.11,-0.97
552353,0.22,0.06,-0.95
552374,0.33,0.13,-0.97
552395,0.55,0.13,-0.98
552416,0.37,0.08,-0.96
552437,0.2,0.13,-0.96
552458,0.4,0.15,-0.97
552479,0.51,0.09,-0.96
552500,0.31,0.09,-0.96
552521,0.35,0.13,-0.97
552542,0.44,0.11,-0.97
552563,0.42,0.09,-0.97
552584,0.34,0.1,-0.97
552605,0.31,0.12,-0.94
552626,0.4,0.13,-0.95
552647,0.48,0.1,-0.97
552668,0.39,0.06,-0.95
552689,0.32,0.11,-0.95
552710,0.33,0.16,-0.95
552731,0.47,0.14,-0.96
552752,0.66,0.04,-1.0
552773,0.25,0.02,-0.98
552794,0.18,0.14,-0.94
552815,0.3,0.23,-0.9
552836,0.42,0.18,-0.9
552857,0.46,0.1,-0.94
552878,0.39,0.06,-0.98
552899,0.22,0.09,-0.97
552920,0.41,0.15,-0.97
552941,0.4,0.15,-0.95
552962,0.34,0.12,-0.95
552983,0.47,0.1,-0.98
553004,0.45,0.07,-0.99
553025,0.33,0.09,-0.95
553046,0.4,0.14,-0.96
553067,0.76,0.08,-1.04
553088,0.85,-0.1,-1.17
553109,-0.14,0.03,-1.01
553130,-0.23,0.37,-0.74
553151,0.42,0.24,-0.92
553172,1.02,0.14,-0.87
553193,0.66,0.04,-0.9
553214,0.07,0.09,-0.87
553235,-0.06,0.29,-0.86
553256,0.4,0.3,-0.8
553277,0.7,0.15,-0.8
553298,0.59,0.08,-0.89
553319,0.48,0.07,-0.99
553340,0.51,0.09,-1.0
553361,0.44,0.13,-0.96
553382,0.44,0.18,-0.92
553403,0.44,0.2,-0.89
553424,0.37,0.18,-0.88
553445,0.44,0.17,-0.89
553466,0.54,0.13,-0.91
553487,0.62,0.09,-0.93
553508,0.43,0.1,-0.94
553529,0.34,0.12,-0.97
553550,0.35,0.14,-0.93
553571,0.55,0.14,-0.91
553592,0.59,0.11,-0.93
553613,0.46,0.1,-0.95
553634,0.32,0.11,-0.94
553655,0.41,0.15,-0.9
553676,0.51,0.16,-0.89
553697,0.5,0.13,-0.92
553718,0.47,0.12,-0.93
553739,0.49,0.1,-0.91
553760,0.48,0.12,-0.91
553781,0.45,0.12,-0.91
553802,0.3,0.14,-0.91
553823,0.38,0.14,-0.91
553844,0.54,0.11,-0.92
553865,0.29,0.12,-0.92
553886,-0.01,0.18,-0.9
553907,0.84,0.17,-0.94
553928,1.29,0.0,-0.95
553949,0.46,-0.02,-0.94
553970,0.08,0.13,-0.96
553991,0.27,0.27,-0.87
554012,0.34,0.23,-0.81
554033,0.42,0.17,-0.81
554054,0.43,0.12,-0.88
554075,0.45,0.09,-0.93
554096,0.57,0.07,-0.96
554117,0.48,0.07,-0.94
554138,0.67,0.07,-0.95
554159,0.49,0.12,-0.95
554180,0.74,0.12,-0.89
554201,0.68,0.14,-0.88
554222,0.11,0.17,-0.88
554243,0.27,0.2,-0.87
554264,0.47,0.15,-0.86
554285,0.53,0.08,-0.89
554306,0.62,0.06,-0.92
554327,0.39,0.06,-0.96
554348,0.4,0.12,-0.96
554369,0.44,0.14,-0.93
554390,0.43,0.12,-0.91
554411,0.4,0.14,-0.92
554432,0.46,0.15,-0.92
554453,0.51,0.13,-0.93
554474,0.51,0.13,-0.93
554495,0.5,0.13,-0.94
554516,0.52,0.12,-0.93
554537,0.4,0.12,-0.93
554558,0.37,0.14,-0.92
554579,0.41,0.14,-0.93
554600,0.42,0.11,-0.94
554621,0.38,0.12,-0.93
554642,0.34,0.12,-0.93
554663,0.48,0.12,-0.92
554684,0.46,0.1,-0.92
554705,0.19,0.14,-0.91
554726,0.48,0.16,-0.91
554747,0.65,0.09,-0.88
554768,0.21,0.1,-0.91
554789,0.18,0.19,-0.94
554810,0.92,0.11,-0.9
554831,0.89,0.02,-0.91
554852,0.6,0.03,-0.97
554873,0.2,0.14,-0.93
554894,0.17,0.22,-0.89
554915,0.45,0.22,-0.84
554936,0.54,0.1,-0.86
554957,0.45,0.08,-0.93
554978,0.46,0.09,-0.96
554999,0.54,0.11,-0.95
555020,0.49,0.11,-0.92
555041,0.46,0.15,-0.9
555062,0.46,0.17,-0.9
555083,0.53,0.14,-0.91
555104,0.45,0.13,-0.92
555125,0.43,0.14,-0.93
555146,0.44,0.14,-0.92
555167,0.47,0.14,-0.91
555188,0.47,0.13,-0.92
555209,0.42,0.14,-0.94
555230,0.41,0.14,-0.94
555251,0.41,0.17,-0.94
555272,0.47,0.14,-0.93
555293,0.49,0.12,-0.93
555314,0.4,0.15,-0.93
555335,0.36,0.16,-0.91
555356,0.44,0.16,-0.91
555377,0.44,0.14,-0.92
555398,0.45,0.12,-0.94
555419,0.42,0.12,-0.94
555440,0.46,0.14,-0.94
555461,0.42,0.15,-0.94
555482,0.42,0.15,-0.94
555503,0.33,0.14,-0.92
555524,0.19,0.16,-0.9
555545,0.47,0.18,-0.91
555566,0.79,0.11,-0.94
555587,0.59,0.07,-0.93
555608,0.23,0.16,-0.95
555629,0.31,0.22,-0.94
555650,0.5,0.17,-0.89
555671,0.43,0.13,-0.91
555692,0.36,0.14,-0.93
555713,0.44,0.15,-0.91
555734,0.4,0.15,-0.92
555755,0.47,0.15,-0.92
555776,0.48,0.13,-0.92
555797,0.46,0.14,-0.91
555818,0.32,0.16,-0.91
555839,0.46,0.16,-0.9
555860,0.55,0.12,-0.91
555881,0.53,0.1,-0.93
555902,0.43,0.13,-0.95
555923,0.46,0.15,-0.93
555944,0.52,0.14,-0.92
555965,0.49,0.13,-0.93
555986,0.43,0.13,-0.93
556007,0.43,0.14,-0.94
556028,0.43,0.13,-0.91
556049,0.43,0.14,-0.89
556070,0.44,0.15,-0.9
556091,0.38,0.16,-0.9
556112,0.36,0.16,-0.9
556133,0.39,0.17,-0.88
556154,0.43,0.15,-0.9
556175,0.54,0.13,-0.92
556196,0.41,0.14,-0.92
556217,0.43,0.17,-0.93
556238,0.62,0.17,-0.96
556259,0.56,0.14,-0.97
556280,0.53,0.14,-0.96
556301,0.45,0.17,-0.93
556322,0.33,0.19,-0.89
556343,0.31,0.18,-0.89
556364,0.39,0.14,-0.89
556385,0.49,0.12,-0.9
556406,0.52,0.11,-0.89
556427,0.49,0.13,-0.9
556448,0.42,0.15,-0.92
556469,0.43,0.16,-0.92
556490,0.46,0.16,-0.91
556511,0.44,0.16,-0.92
556532,0.44,0.17,-0.91
556553,0.46,0.17,-0.91
556574,0.47,0.18,-0.92
556595,0.48,0.15,-0.92
556616,0.46,0.16,-0.92
556637,0.45,0.16,-0.92
556658,0.43,0.16,-0.92
556679,0.41,0.15,-0.92
556700,0.41,0.17,-0.92
556721,0.37,0.17,-0.93
556742,0.35,0.18,-0.91
556763,0.46,0.15,-0.92
556784,0.45,0.16,-0.94
556805,0.49,0.16,-0.94
556826,0.49,0.15,-0.94
556847,0.46,0.14,-0.92
556868,0.33,0.15,-0.92
556889,0.38,0.18,-0.92
556910,0.53,0.17,-0.9
556931,0.47,0.16,-0.91
556952,0.42,0.18,-0.91
556973,0.56,0.15,-0.92
556994,0.42,0.14,-0.91
557015,0.26,0.18,-0.91
557036,0.5,0.16,-0.91
557057,0.37,0.13,-0.9
557078,0.43,0.15,-0.92
557099,0.51,0.15,-0.91
557120,0.48,0.15,-0.9
557141,0.57,0.16,-0.9
557162,0.52,0.15,-0.89
557183,0.43,0.17,-0.91
557204,0.38,0.2,-0.91
557225,0.48,0.2,-0.92
557246,0.49,0.18,-0.92
557267,0.51,0.16,-0.92
557288,0.43,0.18,-0.94
557309,0.61,0.14,-0.91
557330,0.57,0.1,-0.91
557351,0.24,0.14,-0.91
557372,0.38,0.17,-0.91
557393,0.52,0.11,-0.88
557414,0.44,0.07,-0.9
557435,0.35,0.12,-0.91
557456,0.41,0.14,-0.91
557477,0.44,0.15,-0.91
557498,0.55,0.12,-0.92
557519,0.55,0.09,-0.9
557540,0.49,0.14,-0.92
557561,0.48,0.2,-0.91
557582,0.41,0.21,-0.91
557603,0.42,0.08,-0.88
557624,0.41,0.14,-0.92
557645,0.42,0.19,-0.94
557666,0.49,0.17,-0.91
557687,0.54,0.13,-0.91
557708,0.47,0.13,-0.92
557729,0.43,0.15,-0.92
557750,0.6,0.12,-0.88
557771,0.57,0.12,-0.89
557792,0.35,0.12,-0.92
557813,0.37,0.15,-0.94
557834,0.52,0.13,-0.93
557855,0.42,0.11,-0.92
557876,0.25,0.16,-0.88
557897,0.43,0.21,-0.91
557918,0.86,0.1,-0.92
557939,0.64,0.05,-0.93
557960,0.54,0.09,-0.93
557981,0.27,0.15,-0.91
558002,0.26,0.22,-0.88
558023,0.66,0.16,-0.86
558044,0.66,0.04,-0.88
558065,0.24,0.07,-0.91
558086,0.33,0.19,-0.93
558107,0.51,0.17,-0.9
558128,0.53,0.11,-0.9
558149,0.36,0.1,-0.91
558170,0.3,0.17,-0.9
558191,0.49,0.18,-0.89
558212,0.68,0.11,-0.88
558233,0.57,0.08,-0.91
558254,0.42,0.13,-0.93
558275,0.47,0.16,-0.92
558296,0.62,0.14,-0.9
558317,0.55,0.12,-0.89
558338,0.38,0.16,-0.88
558359,0.35,0.18,-0.88
558380,0.4,0.17,-0.9
558401,0.49,0.15,-0.91
558422,0.53,0.09,-0.94
558443,0.48,0.1,-0.96
558464,0.46,0.13,-0.93
558485,0.43,0.14,-0.91
558506,0.4,0.15,-0.92
558527,0.45,0.12,-0.92
558548,0.6,0.08,-0.91
558569,0.4,0.11,-0.91
558590,0.13,0.18,-0.9
558611,0.46,0.19,-0.91
558632,0.97,0.07,-0.89
558653,0.76,0.04,-0.94
558674,0.12,0.11,-0.95
558695,0.13,0.23,-0.92
558716,0.43,0.24,-0.87
558737,0.78,0.1,-0.9
558758,0.58,0.04,-0.95
558779,0.35,0.11,-0.96
558800,0.28,0.2,-0.9
558821,0.51,0.2,-0.86
558842,0.56,0.14,-0.87
558863,0.38,0.12,-0.9
558884,0.32,0.15,-0.9
558905,0.4,0.18,-0.9
558926,0.78,0.09,-0.89
558947,0.63,0.05,-0.94
558968,0.26,0.12,-0.93
558989,0.4,0.21,-0.89
559010,0.6,0.17,-0.85
559031,0.93,0.08,-0.84
559052,0.46,0.09,-0.87
559073,-0.07,0.21,-0.98
559094,0.23,0.24,-0.97
559115,0.47,0.13,-0.94
559136,0.58,0.09,-0.93
559157,0.4,0.13,-0.97
559178,0.32,0.15,-0.93
559199,0.53,0.18,-0.91
559220,0.51,0.16,-0.93
559241,0.46,0.13,-0.91
559262,0.47,0.16,-0.92
559283,0.33,0.17,-0.91
559304,0.5,0.17,-0.89
559325,0.57,0.13,-0.88
559346,0.53,0.15,-0.9
559367,0.39,0.19,-0.91
559388,0.4,0.22,-0.94
559409,0.36,0.22,-0.94
559430,0.49,0.13,-0.94
559451,0.49,0.12,-0.96
559472,0.44,0.11,-0.95
559493,0.44,0.11,-0.93
559514,0.43,0.14,-0.91
559535,0.48,0.15,-0.9
559556,0.51,0.14,-0.9
559577,0.42,0.15,-0.9
559598,0.45,0.16,-0.91
559619,0.45,0.14,-0.92
559640,0.55,0.11,-0.92
559661,0.46,0.12,-0.91
559682,0.28,0.17,-0.89
559703,0.47,0.21,-0.93
559724,0.72,0.13,-0.93
559745,0.54,0.06,-0.94
559766,0.04,0.13,-0.94
559787,0.22,0.21,-0.89
559808,0.42,0.22,-0.85
559829,0.7,0.16,-0.85
559850,0.66,0.03,-0.9
559871,0.09,0.06,-0.92
559892,-0.09,0.28,-0.89
559913,0.97,0.29,-0.86
559934,1.06,0.05,-0.85
559955,0.6,-0.03,-0.96
559976,0.04,0.07,-0.98
559997,0.46,0.24,-0.91
560018,0.64,0.23,-0.85
560039,0.52,0.14,-0.9
560060,0.32,0.1,-0.93
560081,0.31,0.13,-0.93
560102,0.51,0.16,-0.9
560123,0.49,0.14,-0.91
560144,0.52,0.12,-0.91
560165,0.49,0.1,-0.93
560186,0.39,0.14,-0.92
560207,0.46,0.16,-0.91
560228,0.55,0.13,-0.91
560249,0.51,0.12,-0.92
560270,0.48,0.13,-0.92
560291,0.45,0.14,-0.92
560312,0.44,0.15,-0.91
560333,0.45,0.15,-0.91
560354,0.42,0.14,-0.93
560375,0.43,0.13,-0.93
560396,0.43,0.13,-0.94
560417,0.45,0.13,-0.92
560438,0.42,0.15,-0.9
560459,0.46,0.16,-0.91
560480,0.5,0.13,-0.91
560501,0.43,0.1,-0.91
560522,0.45,0.18,-0.92
560543,0.7,0.13,-0.94
560564,0.7,0.03,-0.94
560585,0.32,0.07,-0.95
560606,0.21,0.14,-0.94
560627,0.37,0.2,-0.92
560648,0.52,0.16,-0.88
560669,0.36,0.14,-0.85
560690,0.24,0.19,-0.86
560711,0.44,0.19,-0.87
560732,0.46,0.14,-0.88
560753,0.61,0.12,-0.89
560774,0.42,0.14,-0.91
560795,0.54,0.15,-0.93
560816,0.45,0.12,-0.91
560837,0.15,0.19,-0.92
560858,0.49,0.2,-0.91
560879,0.59,0.12,-0.91
560900,0.88,0.1,-0.92
560921,0.85,0.01,-0.91
560942,0.35,0.09,-0.89
560963,0.22,0.2,-0.87
560984,0.35,0.24,-0.85
561005,0.52,0.11,-0.85
561026,0.5,0.08,-0.91
561047,0.43,0.05,-0.94
561068,0.38,0.11,-0.93
561089,0.54,0.16,-0.9
561110,0.53,0.12,-0.89
561131,0.43,0.13,-0.91
561152,0.5,0.11,-0.9
561173,0.58,0.09,-0.9
561194,0.37,0.11,-0.91
561215,0.49,0.08,-0.91
561236,0.55,0.06,-0.87
561257,0.58,0.12,-0.88
561278,0.61,0.12,-0.88
561299,0.57,0.13,-0.89
561320,0.41,0.16,-0.9
561341,0.6,0.16,-0.9
561362,0.56,0.1,-0.9
561383,0.51,0.1,-0.91
561404,0.45,0.13,-0.91
561425,0.49,0.13,-0.89
561446,0.48,0.13,-0.9
561467,0.51,0.13,-0.9
561488,0.49,0.13,-0.89
561509,0.49,0.13,-0.89
561530,0.41,0.14,-0.9
561551,0.43,0.15,-0.9
561572,0.49,0.13,-0.9
561593,0.52,0.12,-0.9
561614,0.47,0.12,-0.91
561635,0.36,0.12,-0.9
561656,0.28,0.13,-0.89
561677,0.5,0.12,-0.87
561698,0.53,0.1,-0.9
561719,0.39,0.11,-0.91
561740,0.36,0.12,-0.87
561761,0.38,0.18,-0.87
561782,0.6,0.13,-0.85
561803,0.81,0.03,-0.87
561824,0.88,-0.01,-0.92
561845,0.71,0.02,-0.94
561866,0.53,0.07,-0.92
561887,0.21,0.17,-0.89
561908,0.38,0.25,-0.86
561929,0.61,0.16,-0.82
561950,0.63,0.08,-0.87
561971,0.46,0.07,-0.92
561992,0.23,0.13,-0.91
562013,0.58,0.19,-0.86
562034,0.78,0.11,-0.81
562055,0.61,0.06,-0.86
562076,0.46,0.1,-0.9
562097,0.38,0.15,-0.92
562118,0.51,0.13,-0.91
562139,0.6,0.08,-0.89
562160,0.29,0.13,-0.9
562181,0.48,0.18,-0.89
562202,0.78,0.1,-0.88
562223,0.67,0.03,-0.89
562244,0.29,0.1,-0.9
562265,0.56,0.17,-0.86
562286,0.62,0.12,-0.85
562307,0.38,0.07,-0.88
562328,0.21,0.14,-0.89
562349,0.5,0.17,-0.88
562370,0.79,0.09,-0.88
562391,0.82,0.03,-0.89
562412,0.52,0.04,-0.9
562433,0.43,0.13,-0.88
562454,0.53,0.17,-0.84
562475,0.56,0.11,-0.84
562496,0.58,0.08,-0.89
562517,0.36,0.06,-0.9
562538,0.29,0.15,-0.88
562559,0.66,0.15,-0.83
562580,0.85,0.05,-0.83
562601,0.51,0.03,-0.9
562622,0.46,0.12,-0.92
562643,0.51,0.14,-0.89
562664,0.54,0.14,-0.88
562685,0.52,0.11,-0.88
562706,0.48,0.11,-0.9
562727,0.49,0.11,-0.9
562748,0.52,0.12,-0.89
562769,0.59,0.13,-0.89
562790,0.59,0.09,-0.88
562811,0.55,0.11,-0.88
562832,0.48,0.13,-0.88
562853,0.46,0.13,-0.87
562874,0.49,0.12,-0.88
562895,0.53,0.1,-0.88
562916,0.48,0.1,-0.9
562937,0.43,0.11,-0.9
562958,0.51,0.11,-0.91
562979,0.53,0.11,-0.91
563000,0.47,0.11,-0.89
563021,0.58,0.03,-0.91
563042,0.67,0.09,-0.93
563063,0.49,0.13,-0.91
563084,0.35,0.2,-0.9
563105,0.07,0.22,-0.86
563126,0.38,0.24,-0.87
563147,0.77,0.07,-0.88
563168,0.7,0.01,-0.94
563189,0.35,0.06,-0.96
563210,0.18,0.15,-0.9
563231,0.47,0.22,-0.84
563252,0.65,0.11,-0.84
563273,0.52,0.07,-0.91
563294,0.31,0.1,-0.95
563315,0.39,0.16,-0.91
563336,0.66,0.12,-0.89
563357,0.65,0.06,-0.89
563378,0.38,0.11,-0.93
563399,0.34,0.17,-0.91
563420,0.49,0.17,-0.88
563441,0.69,0.08,-0.88
563462,0.6,0.05,-0.92
563483,0.47,0.09,-0.93
563504,0.45,0.13,-0.91
563525,0.41,0.15,-0.88
563546,0.45,0.14,-0.88
563567,0.47,0.12,-0.9
563588,0.49,0.09,-0.92
563609,0.52,0.1,-0.92
563630,0.44,0.12,-0.91
563651,0.45,0.14,-0.92
563672,0.49,0.12,-0.91
563693,0.5,0.11,-0.91
563714,0.51,0.11,-0.91
563735,0.46,0.13,-0.91
563756,0.47,0.13,-0.9
563777,0.46,0.12,-0.9
563798,0.47,0.1,-0.91
563819,0.48,0.11,-0.91
563840,0.49,0.11,-0.92
563861,0.49,0.11,-0.91
563882,0.52,0.1,-0.91
563903,0.48,0.12,-0.92
563924,0.37,0.14,-0.92
563945,0.33,0.16,-0.91
563966,0.43,0.13,-0.89
563987,0.48,0.13,-0.9
564008,0.42,0.12,-0.94
564029,0.38,0.14,-0.92
564050,0.48,0.12,-0.91
564071,0.52,0.12,-0.92
564092,0.5,0.1,-0.92
564113,0.48,0.1,-0.92
564134,0.46,0.11,-0.91
564155,0.46,0.12,-0.9
564176,0.48,0.13,-0.9
564197,0.5,0.11,-0.9
564218,0.5,0.11,-0.91
564239,0.51,0.11,-0.92
564260,0.45,0.13,-0.92
564281,0.34,0.14,-0.92
564302,0.37,0.16,-0.89
564323,0.46,0.17,-0.92
564344,0.56,0.17,-0.91
564365,0.51,0.13,-0.93
564386,0.4,0.13,-0.93
564407,0.5,0.21,-0.88
564428,0.53,0.12,-0.87
564449,0.67,0.0,-0.88
564470,0.52,0.06,-0.92
564491,0.45,0.09,-0.91
564512,0.47,0.13,-0.89
564533,0.45,0.08,-0.83
564554,0.44,0.14,-0.84
564575,0.66,0.07,-0.87
564596,0.25,0.11,-0.91
564617,0.3,0.22,-0.94
564638,1.14,0.1,-0.83
564659,0.73,0.09,-0.88
564680,0.35,0.17,-0.96
564701,0.39,0.17,-0.96
564722,0.35,0.16,-0.89
564743,0.44,0.17,-0.81
564764,0.55,0.15,-0.85
564785,0.51,0.08,-0.92
564806,0.4,0.11,-0.95
564827,0.5,0.15,-0.87
564848,0.45,0.21,-0.82
564869,0.59,0.19,-0.86
564890,0.45,0.17,-0.93
564911,0.53,0.14,-0.97
564932,0.52,0.15,-0.95
564953,0.37,0.16,-0.87
564974,0.48,0.13,-0.87
564995,0.39,0.14,-0.91
565016,0.48,0.09,-0.88
565037,0.64,0.13,-0.87
565058,0.57,0.11,-0.88
565079,0.34,0.12,-0.91
565100,0.3,0.15,-0.91
565121,0.52,0.19,-0.86
565142,0.6,0.17,-0.88
565163,0.54,0.1,-0.95
565184,0.59,0.11,-0.96
565205,0.51,0.14,-0.92
565226,0.3,0.27,-0.85
565247,0.4,0.28,-0.83
565268,0.51,0.23,-0.83
565289,0.74,0.16,-0.85
565310,0.72,0.08,-0.9
565331,0.55,0.14,-0.94
565352,0.48,0.14,-0.91
565373,0.46,0.16,-0.86
565394,0.48,0.21,-0.81
565415,0.49,0.16,-0.84
565436,0.48,0.12,-0.92
565457,0.57,0.15,-0.94
565478,0.5,0.17,-0.86
565499,0.49,0.22,-0.82
565520,0.73,0.14,-0.84
565541,0.57,0.07,-0.87
565562,0.22,0.18,-0.88
565583,0.26,0.23,-0.86
565604,0.97,0.11,-0.86
565625,0.84,0.07,-0.89
565646,0.23,0.19,-0.95
565667,0.34,0.2,-0.88
565688,0.46,0.23,-0.83
565709,0.76,0.16,-0.79
565730,0.7,0.09,-0.87
565751,0.21,0.1,-0.93
565772,0.43,0.23,-0.9
565793,0.68,0.26,-0.82
565814,0.58,0.17,-0.84
565835,0.28,0.15,-0.94
565856,0.65,0.2,-0.9
565877,0.62,0.21,-0.81
565898,0.3,0.21,-0.86
565919,0.53,0.03,-0.96
565940,0.88,0.13,-0.89
565961,0.25,0.27,-0.81
565982,0.42,0.15,-0.82
566003,0.64,0.13,-0.86
566024,0.69,0.08,-0.89
566045,0.53,0.14,-0.89
566066,0.24,0.21,-0.89
566087,0.66,0.19,-0.83
566108,0.68,0.13,-0.86
566129,0.54,0.08,-0.91
566150,0.3,0.24,-0.88
566171,0.36,0.31,-0.81
566192,0.76,0.17,-0.81
566213,0.71,0.02,-0.91
566234,0.63,0.12,-0.99
566255,0.36,0.25,-0.89
566276,0.48,0.23,-0.81
566297,0.46,0.14,-0.85
566318,0.38,0.07,-0.95
566339,0.59,0.25,-0.91
566360,0.41,0.25,-0.8
566381,0.45,0.13,-0.84
566402,0.57,0.02,-0.94
566423,0.67,0.21,-0.92
566444,0.6,0.28,-0.79
566465,0.46,0.1,-0.79
566486,0.39,0.0,-0.92
566507,0.63,0.21,-0.94
566528,0.67,0.3,-0.79
566549,0.39,0.12,-0.82
566570,0.37,0.01,-0.92
566591,0.64,0.18,-0.95
566612,0.76,0.34,-0.77
566633,0.43,0.1,-0.81
566654,0.26,-0.03,-0.95
566675,0.62,0.19,-0.95
566696,0.85,0.38,-0.76
566717,0.4,0.07,-0.81
566738,0.31,0.02,-0.94
566759,0.64,0.22,-0.93
566780,0.67,0.31,-0.79
566801,0.4,0.13,-0.83
566822,0.36,0.01,-0.94
566843,0.63,0.15,-0.96
566864,0.77,0.38,-0.83
566885,0.51,0.13,-0.8
566906,0.38,0.03,-0.91
566927,0.51,0.16,-0.94
566948,0.76,0.36,-0.75
566969,0.43,0.17,-0.74
566990,0.36,-0.06,-0.9
567011,0.41,0.12,-0.97
567032,0.8,0.39,-0.78
567053,0.51,0.1,-0.76
567074,0.42,-0.04,-0.89
567095,0.51,0.18,-0.93
567116,0.61,0.3,-0.82
567137,0.44,0.15,-0.84
567158,0.46,-0.01,-0.93
567179,0.67,0.27,-0.91
567200,0.56,0.19,-0.85
567221,0.44,0.18,-0.88
567242,0.58,0.12,-0.87
567263,0.56,0.21,-0.85
567284,0.49,0.14,-0.87
567305,0.53,0.14,-0.9
567326,0.59,0.17,-0.89
567347,0.57,0.18,-0.87
567368,0.52,0.15,-0.89
567389,0.53,0.15,-0.89
567410,0.58,0.15,-0.86
567431,0.55,0.14,-0.86
567452,0.53,0.14,-0.89
567473,0.53,0.12,-0.91
567494,0.56,0.18,-0.88
567515,0.43,0.17,-0.83
567536,0.39,0.17,-0.87
567557,0.55,0.1,-0.89
567578,0.58,0.2,-0.88
567599,0.46,0.12,-0.86
567620,0.38,0.09,-0.89
567641,0.43,0.13,-0.91
567662,0.55,0.21,-0.89
567683,0.5,0.16,-0.84
567704,0.45,0.17,-0.85
567725,0.45,0.12,-0.86
567746,0.48,0.13,-0.83
567767,0.44,0.04,-0.87
567788,0.35,0.01,-0.98
567809,0.69,0.18,-1.0
567830,0.78,0.24,-0.91
567851,0.67,0.23,-0.84
567872,0.51,0.19,-0.83
567893,0.44,0.09,-0.85
567914,0.4,0.1,-0.89
567935,0.52,0.25,-0.86
567956,0.38,0.17,-0.79
567977,0.33,0.07,-0.88
567998,0.49,0.09,-1.01
568019,0.83,0.39,-0.87
568040,0.59,0.2,-0.78
568061,0.06,-0.2,-0.95
568082,0.54,0.21,-1.01
568103,0.69,0.37,-0.82
568124,0.29,0.02,-0.92
568145,0.45,0.08,-1.03
568166,0.77,0.28,-0.86
568187,0.59,0.19,-0.78
568208,0.25,0.03,-0.88
568229,0.36,0.1,-0.92
568250,0.62,0.22,-0.85
568271,0.55,0.19,-0.77
568292,0.34,0.05,-0.89
568313,0.6,0.13,-0.95
568334,0.63,0.22,-0.9
568355,0.5,0.15,-0.88
568376,0.61,0.24,-0.85
568397,0.41,0.01,-0.92
568418,0.57,0.21,-0.9
568439,0.52,0.21,-0.81
568460,0.26,0.05,-0.92
568481,0.45,0.05,-1.03
568502,0.77,0.3,-0.89
568523,0.62,0.23,-0.78
568544,0.3,0.04,-0.86
568565,0.27,0.03,-0.92
568586,0.67,0.22,-0.89
568607,0.58,0.15,-0.84
568628,0.45,0.12,-0.91
568649,0.43,0.08,-1.0
568670,0.59,0.1,-0.97
568691,0.79,0.35,-0.78
568712,0.36,0.06,-0.82
568733,0.28,-0.03,-0.91
568754,0.57,0.2,-0.94
568775,0.71,0.33,-0.78
568796,0.41,0.11,-0.81
568817,0.19,-0.17,-0.97
568838,0.61,0.15,-1.08
568859,1.11,0.48,-0.71
568880,0.32,0.12,-0.73
568901,0.1,-0.11,-0.91
568922,0.37,0.08,-1.05
568943,1.02,0.39,-0.82
568964,0.38,0.08,-0.78
568985,0.37,-0.01,-0.92
569006,0.59,0.06,-0.99
569027,0.76,0.32,-0.84
569048,0.46,0.12,-0.81
569069,0.32,0.04,-0.89
569090,0.57,0.18,-0.9
569111,0.5,0.16,-0.85
569132,0.5,0.12,-0.88
569153,0.51,0.1,-0.89
569174,0.49,0.11,-0.92
569195,0.62,0.19,-0.88
569216,0.55,0.14,-0.87
569237,0.45,0.12,-0.9
569258,0.51,0.16,-0.9
569279,0.49,0.11,-0.86
569300,0.53,0.12,-0.88
569321,0.53,0.13,-0.89
569342,0.54,0.14,-0.9
569363,0.54,0.13,-0.93
569384,0.57,0.2,-0.85
569405,0.42,0.11,-0.87
569426,0.42,0.07,-0.89
569447,0.54,0.17,-0.9
569468,0.62,0.21,-0.82
569489,0.61,0.16,-0.83
569510,0.57,0.15,-0.89
569531,0.56,0.15,-0.91
569552,0.57,0.17,-0.86
569573,0.6,0.16,-0.81
569594,0.42,0.08,-0.86
569615,0.41,0.08,-0.9
569636,0.56,0.14,-0.87
569657,0.64,0.21,-0.8
569678,0.5,0.14,-0.77
569699,0.39,0.06,-0.88
569720,0.31,0.01,-0.91
569741,0.55,0.15,-0.89
569762,0.62,0.09,-0.91
569783,0.58,0.05,-0.98
569804,0.79,0.16,-0.96
569825,0.79,0.25,-0.82
569846,0.47,0.16,-0.82
569867,0.36,0.12,-0.83
569888,0.16,0.04,-0.89
569909,0.51,0.18,-0.91
569930,0.63,0.21,-0.81
569951,0.54,0.16,-0.78
569972,0.25,-0.05,-0.91
569993,0.37,0.06,-1.05
570014,0.96,0.37,-0.84
570035,0.76,0.3,-0.65
570056,0.33,0.04,-0.81
570077,-0.1,-0.14,-0.97
570098,0.71,0.27,-0.98
570119,1.04,0.3,-0.69
570140,0.41,0.06,-0.8
570161,0.24,-0.13,-1.03
570182,0.85,0.3,-0.96
570203,0.8,0.27,-0.76
570224,0.48,0.15,-0.8
570245,0.38,-0.05,-0.94
570266,0.56,0.25,-0.93
570287,0.77,0.23,-0.71
570308,0.52,0.12,-0.72
570329,0.18,-0.14,-0.96
570350,0.71,0.19,-0.96
570371,0.9,0.34,-0.68
570392,0.3,0.04,-0.77
570413,0.2,-0.04,-1.03
570434,0.8,0.23,-0.94
570455,0.82,0.27,-0.7
570476,0.53,0.2,-0.73
570497,0.15,-0.2,-0.96
570518,0.5,0.18,-1.08
570539,1.12,0.43,-0.68
570560,0.39,0.1,-0.71
570581,0.2,-0.11,-0.95
570602,0.54,0.19,-1.04
570623,1.12,0.37,-0.69
570644,0.42,0.11,-0.72
570665,0.23,-0.09,-0.94
570686,0.62,0.17,-0.99
570707,0.88,0.34,-0.77
570728,0.43,0.11,-0.78
570749,0.29,-0.08,-0.96
570770,0.69,0.25,-0.92
570791,0.74,0.25,-0.72
570812,0.39,0.09,-0.84
570833,0.51,0.07,-0.94
570854,0.65,0.14,-0.87
570875,0.65,0.21,-0.81
570896,0.78,0.26,-0.7
570917,0.31,0.05,-0.79
570938,0.22,0.03,-0.88
570959,0.65,0.18,-0.87
570980,0.69,0.18,-0.77
571001,0.57,0.12,-0.83
571022,0.54,0.08,-0.94
571043,0.69,0.15,-0.92
571064,0.62,0.15,-0.86
571085,0.56,0.14,-0.87
571106,0.56,0.16,-0.87
571127,0.55,0.15,-0.84
571148,0.55,0.13,-0.83
571169,0.56,0.08,-0.85
571190,0.56,0.11,-0.86
571211,0.6,0.12,-0.84
571232,0.58,0.14,-0.84
571253,0.54,0.1,-0.84
571274,0.54,0.08,-0.87
571295,0.61,0.13,-0.85
571316,0.64,0.18,-0.82
571337,0.58,0.12,-0.82
571358,0.49,0.1,-0.86
571379,0.5,0.07,-0.87
571400,0.57,0.1,-0.84
571421,0.62,0.12,-0.84
571442,0.62,0.11,-0.84
571463,0.48,0.08,-0.86
571484,0.56,0.07,-0.81
571505,0.54,0.25,-0.74
571526,0.5,0.08,-0.81
571547,0.58,-0.03,-0.95
571568,0.88,0.22,-0.84
571589,0.54,0.14,-0.83
571610,0.43,0.05,-0.91
571631,0.49,-0.04,-0.92
571652,0.54,0.12,-0.82
571673,0.4,0.05,-0.85
571694,0.46,-0.0,-0.92
571715,0.83,0.16,-0.85
571736,0.72,0.18,-0.74
571757,0.52,0.14,-0.78
571778,0.58,0.11,-0.78
571799,0.58,0.05,-0.8
571820,0.65,0.15,-0.78
571841,0.52,0.03,-0.87
571862,0.56,0.01,-0.92
571883,0.68,0.13,-0.85
571904,0.53,0.14,-0.8
571925,0.45,0.08,-0.91
571946,0.48,-0.09,-0.96
571967,0.85,0.15,-0.9
571988,0.81,0.26,-0.74
572009,0.35,0.07,-0.8
572030,0.13,-0.15,-0.96
572051,0.97,0.12,-0.92
572072,0.99,0.36,-0.69
572093,0.35,0.13,-0.76
572114,-0.01,-0.29,-0.94
572135,0.8,0.06,-1.02
572156,1.34,0.48,-0.66
572177,0.39,0.13,-0.71
572198,0.11,-0.09,-0.86
572219,-0.13,-0.18,-0.99
572240,1.26,0.3,-0.9
572261,1.03,0.33,-0.52
572282,0.12,-0.06,-0.88
572303,0.16,-0.12,-0.99
572324,1.06,0.24,-0.82
572345,0.6,0.12,-0.74
572366,0.41,0.03,-0.87
572387,0.35,0.03,-0.91
572408,0.71,0.1,-0.88
572429,0.78,0.24,-0.78
572450,0.54,0.14,-0.84
572471,0.29,-0.12,-0.9
572492,0.57,0.11,-0.96
572513,0.91,0.32,-0.78
572534,0.51,0.1,-0.79
572555,0.37,-0.04,-0.91
572576,0.56,0.08,-0.94
572597,0.79,0.21,-0.78
572618,0.42,0.03,-0.84
572639,0.47,0.04,-0.91
572660,0.67,0.1,-0.85
572681,0.62,0.13,-0.8
572702,0.56,0.1,-0.85
572723,0.5,0.05,-0.89
572744,0.63,0.13,-0.87
572765,0.62,0.18,-0.79
572786,0.46,0.07,-0.83
572807,0.43,0.07,-0.9
572828,0.58,0.11,-0.89
572849,0.64,0.15,-0.85
572870,0.62,0.12,-0.85
572891,0.57,0.11,-0.87
572912,0.56,0.12,-0.88
572933,0.57,0.13,-0.85
572954,0.59,0.11,-0.84
572975,0.51,0.08,-0.87
572996,0.53,0.08,-0.89
573017,0.59,0.1,-0.86
573038,0.55,0.09,-0.85
573059,0.53,0.08,-0.87
573080,0.52,0.08,-0.86
573101,0.56,0.09,-0.86
573122,0.54,0.09,-0.85
573143,0.53,0.08,-0.87
573164,0.51,0.08,-0.88
573185,0.56,0.1,-0.87
573206,0.57,0.1,-0.87
573227,0.53,0.09,-0.87
573248,0.51,0.09,-0.88
573269,0.55,0.11,-0.86
573290,0.55,0.11,-0.85
573311,0.53,0.11,-0.85
573332,0.52,0.09,-0.86
573353,0.55,0.1,-0.88
573374,0.54,0.12,-0.88
573395,0.56,0.12,-0.87
573416,0.54,0.09,-0.86
573437,0.54,0.11,-0.86
573458,0.54,0.1,-0.87
573479,0.55,0.11,-0.86
573500,0.55,0.1,-0.86
573521,0.52,0.09,-0.87
573542,0.55,0.1,-0.87
573563,0.56,0.11,-0.87
573584,0.57,0.11,-0.86
573605,0.55,0.12,-0.87
573626,0.52,0.1,-0.87
573647,0.54,0.1,-0.87
573668,0.54,0.11,-0.86
573689,0.53,0.11,-0.87
573710,0.54,0.09,-0.87
573731,0.54,0.1,-0.88
573752,0.56,0.11,-0.88
573773,0.58,0.1,-0.86
573794,0.6,0.1,-0.85
573815,0.59,0.1,-0.85
573836,0.56,0.1,-0.86
573857,0.53,0.08,-0.86
573878,0.51,0.09,-0.87
573899,0.55,0.11,-0.86
573920,0.55,0.1,-0.86
573941,0.57,0.1,-0.86
573962,0.49,0.1,-0.88
573983,0.47,0.1,-0.87
574004,0.59,0.11,-0.86
574025,0.64,0.13,-0.82
574046,0.62,0.17,-0.78
574067,0.51,0.17,-0.78
574088,0.27,0.03,-0.85
574109,0.26,-0.05,-0.93
574130,0.61,0.03,-0.98
574151,0.92,0.18,-0.86
574172,0.75,0.13,-0.84
574193,0.61,0.07,-0.89
574214,0.48,0.05,-0.9
574235,0.42,0.09,-0.87
574256,0.44,0.11,-0.84
574277,0.49,0.11,-0.84
574298,0.52,0.11,-0.88
574319,0.52,0.02,-0.92
574340,0.71,0.09,-0.91
574361,0.82,0.23,-0.83
574382,0.64,0.21,-0.79
574403,0.39,0.04,-0.85
